IESNA:LM-63-2002
[TEST] 100571R1
[TESTDATE] 1/31/2008
[ISSUEDATE] 1/15/2014
[TESTLAB] ACUITY BRANDS LIGHTING GRANVILLE LAB
[TESTMETHOD] IES LM-46:2004
[MANUFAC] Lithonia Lighting
[LUMCAT] REVX 400M RW T73 SCWA (COATED)
[LUMINAIRE] 2'X2' RECESSED SQUARE GENERAL AREA LIGHTING WITH REGRESSED WHITE DOOR FRAME AND #T73 TEMPERED GLASS LENS
[LAMPCAT] MVR400/C/VBU/PA
[LAMP] 400W COATED PULSE-START METAL HALIDE
[BALLAST] 
[BALLASTCAT] 
[DISTRIBUTION] DIRECT, SC-0=1.65, SC-90=1.65
[_LAMPPOSITION] 0 , 0
[_LAMPTYPE] METAL HALIDE PULSE START (250W AND ABOVE)
[_LAMPWATTAGE] 400
[_LAMPLUMENS] 42000
[_MOUNTING] Recessed
[_FAMILY] REV
[_PRODUCTID] 78c421f5-44a8-4f90-b7cf-9618535a4255
[_INFOLINK] http://www.lithonia.com/photometrics.aspx?fid=138175
[OTHER] REGRESSED ALUMINUM DOOR; CORNING 73 GLASS LENS; SPREAD RE-270
[_TERCAT] Highbay, Nonlinear                                
[_TER] 40
TILT=NONE
1  42000  1  37  5  1  1  2  2  0
1  1  442
0  2.5  5  7.5  10  12.5  15  17.5  20  22.5  25  27.5  30
32.5  35  37.5  40  42.5  45  47.5  50  52.5  55  57.5  60
62.5  65  67.5  70  72.5  75  77.5  80  82.5  85  87.5  90
0  22.5  45  67.5  90
10739.9  10736.4  10707.4  10678.8  10658.8  10661.4  10706.7
10814.2  10990.4  11214.6  11461.7  11699.6  11883.8  12013.4
12048.5  11917  11620.1  11162.7  10073.1  8880.1  7686.7
6508.5  5418  4463.8  3665.1  3043.7  2546.7  2144.7  1838.3
1578.9  1335.7  1128.7  908.2  661  380.2  106.4  7
10739.9  10722.5  10724.7  10709.4  10707.1  10727.6  10783.3
10923.7  11151.7  11475.5  11860.3  12222.2  12551.2  12770.4
12834.8  12666.6  12130.6  11211.1  10010.5  8724.4  7499.8
6404.5  5385.7  4480.8  3692.2  3021.1  2481.5  2104.6  1846.2
1615.9  1380.1  1138.9  887.3  627.4  366.5  114.4  6.2
10739.9  10755.1  10749  10722.2  10723.3  10751  10796.7
10899.5  11082.9  11357.4  11692.9  12065.4  12385.7  12607.7
12662.4  12460.2  11973.6  11182  10105.1  8900  7760.6
6757.8  5811  4892.8  4037.7  3280.3  2648.4  2168  1856.8
1636.4  1400.4  1127.2  870.9  624.1  361.6  111.6  8.3
10739.9  10737.7  10755  10789  10802.1  10856.7  10965.9
11166.7  11432.9  11768.6  12137.5  12510.4  12828.8  13024.4
13049.3  12795.5  12128.2  11030.4  9677.9  8236.2  6919.8
5757.7  4791.5  4078.5  3548.4  3064.9  2544.1  2069.9  1731.7
1511.7  1344  1144  896.5  643.7  386.7  123.8  5.5
10739.9  10757.8  10759.3  10765.6  10811.2  10928.7  11099.4
11375.5  11724.7  12145.8  12514.4  12860.3  13115.6  13147.9
12931.1  12387.7  11454.8  10229.8  8845.8  7422.2  6182.5
5229.1  4565.4  4060.3  3545.1  2918.4  2317.7  1900.2  1686.3
1515.6  1312.2  1084.2  861.4  636.4  373.5  101.7  5.8
