IESNA:LM-63-2002
[TEST] 100701R1
[TESTDATE] 1/31/2008
[ISSUEDATE] 1/15/2014
[TESTLAB] ACUITY BRANDS LIGHTING GRANVILLE LAB
[TESTMETHOD] IES LM-46:2004
[MANUFAC] Lithonia Lighting
[LUMCAT] REVX 175M FWS T73 SCWA (COATED)
[LUMINAIRE] 2'X2' RECESSED SQUARE GENERAL AREA LIGHTING WITH FLUSH WHITE DOOR FRAME AND #T73 TEMPERED GLASS LENS
[LAMPCAT] MXR175/C/VBU/PA
[LAMP] 175W COATED PULSE-START METAL HALIDE
[BALLAST] 
[BALLASTCAT] 
[DISTRIBUTION] DIRECT, SC-0=1.79, SC-90=1.75
[_LAMPPOSITION] 0 , 0
[_LAMPTYPE] METAL HALIDE PULSE START (BELOW 250W)
[_LAMPWATTAGE] 175
[_LAMPLUMENS] 16000
[_MOUNTING] Recessed
[_FAMILY] REV
[_PRODUCTID] 8931db7f-ff1d-4dc3-92d1-ddcd7915f7b2
[_INFOLINK] http://www.lithonia.com/photometrics.aspx?fid=138175
[OTHER] FLAT STEEL DOOR; CORNING 73 GLASS LENS; SPREAD RE-270
[_TERCAT] Highbay, Nonlinear                                
[_TER] 34
TILT=NONE
1  16000  1  37  5  1  1  2  2  0
1  1  198
0  2.5  5  7.5  10  12.5  15  17.5  20  22.5  25  27.5  30
32.5  35  37.5  40  42.5  45  47.5  50  52.5  55  57.5  60
62.5  65  67.5  70  72.5  75  77.5  80  82.5  85  87.5  90
0  22.5  45  67.5  90
3914.5  3908.2  3885.1  3846.9  3809.1  3786.5  3794  3857
3981.9  4172.2  4408.4  4650.1  4891  5103.8  5236.1  5232.9
5015.6  4571.2  4004.4  3434  2906.2  2420.6  1984.8  1627.3
1354.6  1140.7  962.4  831  718.8  617.9  528.8  447.1  366.6
275.6  167.9  62  4.9
3914.5  3910.6  3888.3  3850.2  3800.8  3764.2  3741.2  3749.8
3809.4  3934  4103.3  4304.1  4521.1  4739.6  4914.4  4985.2
4850.3  4452.5  3894.5  3368.7  2909  2479.3  2079.5  1716.9
1398.9  1140.7  942.8  813.3  719  633.6  542.6  450.6  358.8
262.2  166.1  68.8  4.3
3914.5  3914.4  3894.6  3852.2  3796.3  3737.4  3696.2  3688
3724.3  3811.7  3945.5  4116.6  4310.6  4521.6  4698.4  4746.9
4626.8  4344.2  3897.9  3411.3  2977.4  2593.7  2239.9  1889.7
1557.6  1256.1  1009.2  829.2  709.8  622.1  537.5  447.3
352  255.4  158.2  63.6  5
3914.5  3913.5  3895.2  3856.9  3810.8  3778.7  3784.4  3847.5
3976.4  4158.7  4368.1  4592.3  4806.5  5001.3  5128.7  5075.6
4771.4  4299.6  3702.9  3160.5  2672.7  2218.5  1830  1536.6
1320.1  1142.1  981.2  828.2  692  586.9  513.6  442.5  356.4
260.8  167.8  68.6  4.9
3914.5  3909.8  3886.6  3846.4  3810.1  3801.3  3845.2  3971.2
4171.9  4419.5  4682.2  4920.4  5138.2  5296.6  5328.2  5177.7
4816.2  4258.2  3621  3016  2493  2090.2  1758.7  1535.5
1351  1147.4  935.7  768.1  660  585.2  519.3  439.1  347.1
254.6  161.7  59.7  5.7
