IESNA:LM-63-2002
[TEST] 100718R1
[TESTDATE] 1/31/2008
[ISSUEDATE] 1/15/2014
[TESTLAB] ACUITY BRANDS LIGHTING GRANVILLE LAB
[TESTMETHOD] IES LM-46:2004
[MANUFAC] Lithonia Lighting
[LUMCAT] REVX 250M FWS T73 SCWA (CLEAR)
[LUMINAIRE] 2'X2' RECESSED SQUARE GENERAL AREA LIGHTING WITH FLUSH WHITE DOOR FRAME AND #T73 TEMPERED GLASS LENS
[LAMPCAT] MVR250/VBU/PA
[LAMP] 250W CLEAR PULSE-START METAL HALIDE
[BALLAST] 
[BALLASTCAT] 
[DISTRIBUTION] DIRECT, SC-0=1.95, SC-90=1.86
[_LAMPPOSITION] 0 , 0
[_LAMPTYPE] METAL HALIDE PULSE START (250W AND ABOVE)
[_LAMPWATTAGE] 250
[_LAMPLUMENS] 26300
[_MOUNTING] Recessed
[_FAMILY] REV
[_PRODUCTID] f7419039-9e7c-4d52-91ee-5f137b5ad912
[_INFOLINK] http://www.lithonia.com/photometrics.aspx?fid=138175
[OTHER] FLAT STEEL DOOR; CORNING 73 GLASS LENS; SPREAD RE-270
[_TERCAT] Highbay, Nonlinear                                
[_TER] 37
TILT=NONE
1  26300  1  37  5  1  1  2  2  0
1  1  282
0  2.5  5  7.5  10  12.5  15  17.5  20  22.5  25  27.5  30
32.5  35  37.5  40  42.5  45  47.5  50  52.5  55  57.5  60
62.5  65  67.5  70  72.5  75  77.5  80  82.5  85  87.5  90
0  22.5  45  67.5  90
5667.1  5660.4  5604.8  5471.3  5386.2  5341.8  5353.6  5471.6
5769.6  6236  6763.7  7235.4  7746.2  8343.6  8958.9  9337.3
9229.6  8506.2  7436.9  6327.2  5314.4  4408.6  3619.3  2965.8
2462.9  2068  1738.8  1481.6  1273.3  1087.4  925.4  780.8
641.8  485  303.6  120  7.9
5667.1  5670.6  5619.4  5493.5  5364.8  5269.7  5219.1  5205.2
5320.7  5604.6  6024.3  6456.6  6865.7  7332.5  7848.7  8341.2
8472.4  7892.5  6884.2  5973.1  5159.4  4406  3693.6  3063.9
2511  2044.4  1674.5  1435.4  1264.7  1112  952.2  789.9
628.8  464.9  297.7  131.4  13.1
5667.1  5655.7  5617  5497.8  5360.9  5180.1  5009.5  4925.3
4966.7  5136.2  5407.7  5724.1  6035.1  6368.5  6806.8  7236.1
7351.2  7143.8  6552.7  5797.6  5122.1  4496  3897.4  3294.1
2714.9  2189.3  1755.2  1437.8  1223.6  1068.8  927.1  774.5
612.5  448.2  283.5  120.7  11.2
5667.1  5670.9  5647.6  5558.2  5434.6  5283.3  5219.6  5268.4
5479.9  5878.4  6324.8  6767.8  7211.7  7747.8  8229.6  8452.5
8074.6  7176.8  6169.5  5268.8  4453.1  3701.9  3065.9  2586.4
2236.9  1943  1673.5  1416.5  1182.3  1002.3  875.6  756
612.7  454.1  296  130.1  10.6
5667.1  5672.8  5646.6  5557.8  5459.3  5383.3  5407.3  5591.8
6024  6601.7  7181.5  7619  8150.9  8745.1  9113.6  9059.5
8495.7  7432  6263.8  5198.8  4262  3568.3  3047.9  2637.4
2329.5  1986  1621  1327.3  1135.4  1000.4  885.2  753.3
598.1  442.6  288.2  114.9  11.5
