IESNA:LM-63-2002
[TEST] 100707R1
[TESTDATE] 1/31/2008
[ISSUEDATE] 1/15/2014
[TESTLAB] ACUITY BRANDS LIGHTING GRANVILLE LAB
[TESTMETHOD] IES LM-46:2004
[MANUFAC] Lithonia Lighting
[LUMCAT] REVX 175M RW A82/GL SCWA (CLEAR)
[LUMINAIRE] 2'X2' RECESSED SQUARE GENERAL AREA LIGHTING WITH REGRESSED WHITE DOOR FRAME AND #8227 ACRYLIC LENS WITH TEMPERED GLASS OVERLAY
[LAMPCAT] MXR175/VBU/PA
[LAMP] 175W CLEAR PULSE-START METAL HALIDE
[BALLAST] 
[BALLASTCAT] 
[DISTRIBUTION] DIRECT, SC-0=2.06, SC-90=2.05
[_LAMPPOSITION] 0 , 0
[_LAMPTYPE] METAL HALIDE PULSE START (BELOW 250W)
[_LAMPWATTAGE] 175
[_LAMPLUMENS] 17000
[_MOUNTING] Recessed
[_FAMILY] REV
[_PRODUCTID] 6704b543-8e9e-4209-8f30-f912a37a953a
[_INFOLINK] http://www.lithonia.com/photometrics.aspx?fid=138175
[OTHER] REGRESSED ALUMINUM DOOR; 8227 LENS W/TEMPERED GLASS; SPREAD RE-270
[_TERCAT] Highbay, Nonlinear                                
[_TER] 33
TILT=NONE
1  17000  1  37  5  1  1  2  2  0
1  1  198
0  2.5  5  7.5  10  12.5  15  17.5  20  22.5  25  27.5  30
32.5  35  37.5  40  42.5  45  47.5  50  52.5  55  57.5  60
62.5  65  67.5  70  72.5  75  77.5  80  82.5  85  87.5  90
0  22.5  45  67.5  90
3175.8  3108.3  3309.8  3486.6  3557.9  3368.9  3254.5  3309.8
3387.3  3463.6  3584.9  3763  4020.5  4596.9  5507.4  5594
5297.4  4994.3  4808  4503.8  3715.7  2887.8  2007.1  1322.1
1000.3  779.1  595.6  430.8  297.1  207.9  150.1  112.7
87.8  66.9  46.8  25.6  6.4
3175.8  3211.8  3406.2  3828.7  3998.8  4010.3  3996.2  4108.3
4279.4  4231.9  4049.2  3924.5  3920.9  4363.5  5101.2  5432.2
5196.3  5131.5  5351.1  5785.8  5528.8  4406.5  3043.4  1824
1176.5  862.8  630.2  447.3  311.4  214.8  152  118.2  95.6
73.9  49.4  24.4  5.6
3175.8  3269.6  3554.6  3891.3  4347.2  4461.6  4124.7  3842.2
3658.1  3554.3  3604.5  3568.4  3390.3  3218.1  3164.9  3317.4
3173.1  3003.2  2918.9  3317.3  3679.3  2923.5  2086.2  1652.7
1199.8  820.2  607.9  444  316.5  225  160.2  118.7  92.4
69.6  46.5  22.8  6
3175.8  3254.3  3537.9  3862.1  4179.4  4122.1  4198.7  4359.8
4325.9  4142.5  4001.7  3819.8  3849.7  4192  4721.2  4844.8
4935.6  5010.7  5109.9  4886.2  4550  3434.5  2282  1435
1050.2  811.1  611.9  446.6  313.2  218.2  157.7  117.7
89.7  66.9  45  22.7  6
3175.8  3241.9  3557.2  3831.4  3907.5  3808.3  3692  3700.1
3809.5  3862.2  3730.5  3822.4  4189.4  4849.4  5285  5225.4
5170.2  5268.7  4791.8  4239.9  3368.5  2614.6  1851.5  1305.2
1019.6  780.1  577.8  415.8  290.9  201.1  145.6  118.3
97.7  76.1  51.3  24.1  4.6
