IESNA:LM-63-2002
[TEST] 100722R1
[TESTDATE] 1/31/2008
[ISSUEDATE] 1/15/2014
[TESTLAB] ACUITY BRANDS LIGHTING GRANVILLE LAB
[TESTMETHOD] IES LM-46:2004
[MANUFAC] Lithonia Lighting
[LUMCAT] REVX 250M RW A82/GL SCWA (CLEAR)
[LUMINAIRE] 2'X2' RECESSED SQUARE GENERAL AREA LIGHTING WITH REGRESSED WHITE DOOR FRAME AND #8227 ACRYLIC LENS WITH TEMPERED GLASS OVERLAY
[LAMPCAT] MVR250/VBU/PA
[LAMP] 250W CLEAR PULSE-START METAL HALIDE
[BALLAST] 
[BALLASTCAT] 
[DISTRIBUTION] DIRECT, SC-0=2.12, SC-90=2.11
[_LAMPPOSITION] 0 , 0
[_LAMPTYPE] METAL HALIDE PULSE START (250W AND ABOVE)
[_LAMPWATTAGE] 250
[_LAMPLUMENS] 26300
[_MOUNTING] Recessed
[_FAMILY] REV
[_PRODUCTID] 792eba1a-e52c-4881-bc12-595117ad4239
[_INFOLINK] http://www.lithonia.com/photometrics.aspx?fid=138175
[OTHER] REGRESSED ALUMINUM DOOR; 8227 LENS W/TEMPERED GLASS; SPREAD RE-270
[_TERCAT] Highbay, Nonlinear                                
[_TER] 35
TILT=NONE
1  26300  1  37  5  1  1  2  2  0
1  1  282
0  2.5  5  7.5  10  12.5  15  17.5  20  22.5  25  27.5  30
32.5  35  37.5  40  42.5  45  47.5  50  52.5  55  57.5  60
62.5  65  67.5  70  72.5  75  77.5  80  82.5  85  87.5  90
0  22.5  45  67.5  90
4761.3  4795.5  5224.8  5574.3  5630.6  5410.5  5137.2  5161.6
5019.2  4979.2  5153.8  5297.4  5860  6796.9  7799.3  8502.1
8461.9  7942.6  7689.9  7203.8  6050.7  4983.5  3590.3  2235.8
1612.1  1248.7  950.6  683.5  467.6  323.4  233.6  175.9
136.6  104  71.8  38.7  9.4
4761.3  4846  5346  5770.5  6079.4  6187.7  6133.4  6139.3
6232.2  6001.7  5961.8  5727.4  5750  6112.7  6911.2  7321.8
7473.5  7638.5  8017.9  8334.8  7926.5  6750.4  5066.4  3141
1893.3  1339.5  980.5  691.4  479.1  328.5  233.3  184.2
149.8  115.7  76.2  36.2  8.1
4761.3  4855  5431.1  6108.9  6618  6825.2  6516.9  6136.5
5604.5  5311  5243.3  5076  4860.1  4702.9  4807.7  5086.3
4836.9  4833.3  4922.4  5263.7  5581.6  4777.6  3489.9  2692
1957.4  1311.4  954.3  695.3  494.2  352.3  251.4  185.2
143.3  107.7  71.3  35  8.8
4761.3  4887.3  5399.5  5994.3  6455.1  6571.7  6525.9  6575.1
6375.1  6234.7  6007.9  5779.2  6002  6570.8  7236.3  7475.6
7787.8  8047.3  8162.3  7992.6  7498.3  5932.6  4024.1  2371.6
1668.3  1280.6  964  699.3  486.4  337.5  244.1  181.4  137.9
102.6  68  33.6  8.1
4761.3  4880.3  5463.2  5871.6  6109  5908.1  5694.6  5597.5
5619.5  5588.8  5452.5  5614.3  6114.3  6993  7798.6  8038.6
8073.9  8090.3  7823.7  6839.7  5727.5  4595.8  3166.2  2132.4
1637.5  1264.7  948.1  667.5  463.4  321.2  231  185.9  153.2
119.2  80.5  39.2  9.1
