IESNA:LM-63-2002
[TEST] 100706R1
[TESTDATE] 1/31/2008
[ISSUEDATE] 1/15/2014
[TESTLAB] ACUITY BRANDS LIGHTING GRANVILLE LAB
[TESTMETHOD] IES LM-46:2004
[MANUFAC] Lithonia Lighting
[LUMCAT] REVX 175M RW A82/GL SCWA (COATED) 
[LUMINAIRE] 2'X2' RECESSED SQUARE GENERAL AREA LIGHTING WITH REGRESSED WHITE DOOR FRAME AND #8227 ACRYLIC LENS WITH TEMPERED GLASS OVERLAY
[LAMPCAT] MXR175/C/VBU/PA
[LAMP] 175W COATED PULSE-START METAL HALIDE
[BALLAST] 
[BALLASTCAT] 
[DISTRIBUTION] DIRECT, SC-0=1.84, SC-90=1.83
[_LAMPPOSITION] 0 , 0
[_LAMPTYPE] METAL HALIDE PULSE START (BELOW 250W)
[_LAMPWATTAGE] 175
[_LAMPLUMENS] 16000
[_MOUNTING] Recessed
[_FAMILY] REV
[_PRODUCTID] 49bf97d2-461c-4ba2-a5cf-ab1f3d5d0c49
[_INFOLINK] http://www.lithonia.com/photometrics.aspx?fid=138175
[OTHER] REGRESSED ALUMINUM DOOR; 8227 LENS W/TEMPERED GLASS; SPREAD RE-270
[_TERCAT] Highbay, Nonlinear                                
[_TER] 33
TILT=NONE
1  16000  1  37  5  1  1  2  2  0
1  1  198
0  2.5  5  7.5  10  12.5  15  17.5  20  22.5  25  27.5  30
32.5  35  37.5  40  42.5  45  47.5  50  52.5  55  57.5  60
62.5  65  67.5  70  72.5  75  77.5  80  82.5  85  87.5  90
0  22.5  45  67.5  90
3869.9  3877.6  3981.4  4073.2  4096.6  4022.3  3961.1  3924.5
3881.8  3831.1  3855.2  4010.2  4247.6  4593.5  4917.4  5111.4
5086  4886.4  4450.6  3878.2  3207  2499.5  1839.7  1322.8
975.5  736.6  556.9  404.1  281.1  196.2  140.9  106.2  82.9
63.2  44  23.8  5.8
3869.9  3864  3951  4070.5  4147.1  4117.9  4114.8  4085.2
4049.5  3963.4  3899  3932.8  4055.3  4280  4561  4813  4889
4930.5  4863.1  4631.2  4203.9  3498.6  2571.6  1717  1151.3
799.6  570.9  409.4  285.9  196.2  140.6  110.8  89.9  69.8
46.7  22.7  4.5
3869.9  3892.3  4001.6  4125.6  4226.5  4263  4152.1  4040.2
3871.4  3685.1  3525.9  3437.5  3385.1  3381.1  3461.3  3578.3
3716.3  3848.4  3905.3  3843  3465.1  2743.3  2055  1528.7
1090.8  777.6  566.5  409.8  290.4  207.1  148.8  110.7
86.6  65.2  43.1  21  5.8
3869.9  3880.4  3999.4  4145.9  4276.7  4315.7  4312.7  4262.6
4165  4034.7  3937.4  3992.1  4189.2  4437  4739.1  4935
5035.3  5016.1  4940.2  4692.6  4164.6  3344.9  2375.7  1568.8
1088.7  789.3  583.8  427.1  300.7  208.3  150.7  111.8
84.9  63.4  42.4  21.3  5.2
3869.9  3902.2  4037.1  4192.2  4312  4345.7  4294.1  4240.9
4154.5  4072.7  4076.5  4197.3  4461.3  4793.6  5069.4  5097.9
4980  4797  4401.3  3789.1  3093.2  2414.3  1812.1  1338.4
1004.2  754.4  559.6  404.5  281.4  194.1  140.6  113.7
93.9  73.2  49.5  23.3  5
