IESNA:LM-63-2002
[TEST] 100708R1
[TESTDATE] 1/31/2008
[ISSUEDATE] 1/15/2014
[TESTLAB] ACUITY BRANDS LIGHTING GRANVILLE LAB
[TESTMETHOD] IES LM-46:2004
[MANUFAC] Lithonia Lighting
[LUMCAT] REVX 175M FWS A82/GL SCWA (CLEAR)
[LUMINAIRE] 2'X2' RECESSED SQUARE GENERAL AREA LIGHTING WITH FLUSH WHITE DOOR FRAME AND #8227 ACRYLIC LENS WITH TEMPERED GLASS OVERLAY
[LAMPCAT] MXR175/VBU/PA
[LAMP] 175W CLEAR PULSE-START METAL HALIDE
[BALLAST] 
[BALLASTCAT] 
[DISTRIBUTION] DIRECT, SC-0=2.09, SC-90=2.04
[_LAMPPOSITION] 0 , 0
[_LAMPTYPE] METAL HALIDE PULSE START (BELOW 250W)
[_LAMPWATTAGE] 175
[_LAMPLUMENS] 17000
[_MOUNTING] Recessed
[_FAMILY] REV
[_PRODUCTID] f1e1349d-c8b3-4931-804d-78a30010a59c
[_INFOLINK] http://www.lithonia.com/photometrics.aspx?fid=138175
[OTHER] FLAT STEEL DOOR; 8227 LENS W/TEMPERED GLASS; SPREAD RE-270
[_TERCAT] Highbay, Nonlinear                                
[_TER] 33
TILT=NONE
1  17000  1  37  5  1  1  2  2  0
1  1  198
0  2.5  5  7.5  10  12.5  15  17.5  20  22.5  25  27.5  30
32.5  35  37.5  40  42.5  45  47.5  50  52.5  55  57.5  60
62.5  65  67.5  70  72.5  75  77.5  80  82.5  85  87.5  90
0  22.5  45  67.5  90
3338.1  3367.5  3475.4  3612.5  3649.3  3491.2  3474.8  3446.4
3495.6  3579.9  3672.2  3753.2  4048.8  4805.7  5621.5  5833.8
5466.1  5268.6  5146.6  4911.5  4075.1  3154.8  2040.2  1423.2
1098  819  594  414.7  282  197.6  148.3  116  90.5  69.2
50.4  30.9  11.1
3338.1  3331  3461.1  3722.5  3901.5  3837.4  3809.9  3866.4
3956.3  3973.1  3850.7  3777.6  3785.9  4212.7  4817.1  5302
5294  5112  5402.2  5490.7  5086.8  4076.7  2726.4  1685.5
1225.8  926.4  668.3  457.8  311.2  215.7  158.7  127.9
104.7  81.4  55.5  30.3  11.6
3338.1  3360.7  3506.7  3826.3  4104.1  4173  3947.3  3705.7
3585.2  3543.7  3578.7  3468.2  3337.8  3228.7  3202.1  3261.2
3198.3  3052.8  3009.2  3368.4  3596.2  2921.1  2060.8  1599.5
1160.5  824.6  599.7  430.7  312  222  158.7  125.7  101.1
77.9  53  28.4  11.3
3338.1  3367.3  3566.8  3770.2  3973  3970.4  3975.6  4022.9
4024.3  3895.7  3713.6  3639.5  3707.7  3992  4449  4755.2
4912.5  5067.4  5210.2  4904  4322.6  3281  2265.6  1491.6
1126.1  852.8  624.3  444.9  302  212.5  158.1  123.8  98
75.9  53.1  31.3  13.5
3338.1  3398.8  3602  3814.3  3880  3811.9  3771  3804.8
3820.2  3807.5  3787.7  3829.9  4104.9  4726.8  5308.1  5458.9
5329.7  5373.4  4973.1  4323.9  3472.5  2750.5  1957.8  1412.5
1097.1  814.6  588.9  411.7  293.3  216.5  164.7  136.4
114.9  93.6  68.3  39.1  13.6
