IESNA:LM-63-2002
[TEST] 100719R1
[TESTDATE] 1/31/2008
[ISSUEDATE] 1/15/2014
[TESTLAB] ACUITY BRANDS LIGHTING GRANVILLE LAB
[TESTMETHOD] IES LM-46:2004
[MANUFAC] Lithonia Lighting
[LUMCAT] REVX 250M RW T73 SCWA (CLEAR)
[LUMINAIRE] 2'X2' RECESSED SQUARE GENERAL AREA LIGHTING WITH REGRESSED WHITE DOOR FRAME AND #T73 TEMPERED GLASS LENS
[LAMPCAT] MVR250/VBU/PA
[LAMP] 250W CLEAR PULSE-START METAL HALIDE
[BALLAST] 
[BALLASTCAT] 
[DISTRIBUTION] DIRECT, SC-0=1.99, SC-90=1.86
[_LAMPPOSITION] 0 , 0
[_LAMPTYPE] METAL HALIDE PULSE START (250W AND ABOVE)
[_LAMPWATTAGE] 250
[_LAMPLUMENS] 26300
[_MOUNTING] Recessed
[_FAMILY] REV
[_PRODUCTID] 07d91ea2-6244-46d9-a1f4-6ce1a8040159
[_INFOLINK] http://www.lithonia.com/photometrics.aspx?fid=138175
[OTHER] REGRESSED ALUMINUM DOOR; CORNING 73 GLASS LENS; SPREAD RE-270
[_TERCAT] Highbay, Nonlinear                                
[_TER] 37
TILT=NONE
1  26300  1  37  5  1  1  2  2  0
1  1  282
0  2.5  5  7.5  10  12.5  15  17.5  20  22.5  25  27.5  30
32.5  35  37.5  40  42.5  45  47.5  50  52.5  55  57.5  60
62.5  65  67.5  70  72.5  75  77.5  80  82.5  85  87.5  90
0  22.5  45  67.5  90
5621.3  5589.1  5527.2  5412.6  5321.5  5281.2  5286.1  5385.8
5628.2  6014.2  6512.6  7033.2  7583.9  8160  8713.1  9131
9186.4  8690.3  7801.8  6762.3  5743.9  4791  3957  3269.8
2698.8  2233.8  1857.4  1544.4  1298.2  1098  919.9  771.8
621.6  455.7  260.5  70.9  5.8
5621.3  5602.4  5532.2  5427.9  5303.3  5227.6  5169.5  5157.2
5219.7  5445.7  5813.7  6254  6687.7  7137.6  7625.6  8056.4
8238  7934.1  7121.8  6187.2  5307.7  4501.1  3806  3187.6
2644.3  2178.2  1790.6  1498.5  1301.2  1129.6  952.5  772.5
597.3  426.6  251.3  76.7  4.8
5621.3  5607.2  5550.9  5458.6  5298  5107.3  4953.9  4851.4
4870.4  5027.9  5287.6  5569.6  5865.4  6214.8  6689.6  7193.4
7420.2  7235.4  6728.4  6007.7  5300.7  4644.3  3983.3  3326.2
2724.5  2211.4  1786  1471.9  1265.2  1108.7  939.4  755.1
588.1  431.5  252.4  78.1  5.8
5621.3  5618  5592  5523.8  5374.1  5223.6  5126.1  5177.8
5401  5797.1  6248.1  6729.5  7228.6  7810.2  8313.9  8446
8116.1  7285.6  6165.4  5197.3  4351.5  3637.2  3075.6  2655.6
2343.6  2026.7  1671.3  1353.3  1138  998.2  885.7  752.8
591  432  264.2  80.2  5
5621.3  5648.7  5622.1  5562.1  5432.7  5343.2  5375.1  5557.2
5972.6  6603.6  7239.6  7764.5  8336.9  8919.9  9259.1  9146.7
8440.8  7340  6122.3  5054.8  4220.5  3587.3  3108.8  2765.4
2418.6  1987.4  1562.3  1274.6  1119.3  1002.8  868.1  716.1
569.9  422.7  248.6  66.7  4.3
